{"resourceType":"Bundle","id":"9d93f455-a11a-44af-9266-df07a5c1f63b","type":"document","entry":[{"fullUrl":"urn:uuid:4b8dcfba-ccaf-4fc9-ba30-1e84ebcfe295","resource":{"resourceType":"Composition","id":"4b8dcfba-ccaf-4fc9-ba30-1e84ebcfe295","status":"final","type":{"coding":[{"system":"http://loinc.org","code":"55751-2","display":"Public health Case report"}]},"subject":{"reference":"Patient/0481cd39-71fe-42ee-8fe9-96652bed57ba"},"encounter":{"reference":"Encounter/f9da7f24-30dc-413d-a3c2-64e85ba86da8"},"author":[{"reference":"Practitioner/72484c74-62fe-454c-b2e5-1a4b5e91cd3d"},{"reference":"Organization/0cbf0341-1232-4407-87a2-a037eb92b7c9"}],"title":"PAHO Measles Case Investigation Form","section":[{"title":"Clinical Data, Follow up and Treatment","entry":[{"reference":"Observation/1ab18f93-e1ef-4e5f-8c8d-5b15930e5d4d"},{"reference":"Observation/cdd36d52-5872-4a16-96a8-0dea082bfd6f"},{"reference":"Observation/90ae4230-be37-4a9c-b8f6-52d704baaa90"},{"reference":"Observation/b1d95560-8763-4708-8eab-6efc087c0111"},{"reference":"Observation/08314b3b-13cb-4661-bd0a-4d8aef32eed1"},{"reference":"Observation/ecca2b6a-ff8d-4ea4-9ff8-14e6d35408b3"},{"reference":"Observation/981dd973-6dce-457e-a85e-6d4a5c51867a"},{"reference":"Observation/a2c4f5a5-01fa-4f72-8e21-9477ed3e3495"}]}]}},{"fullUrl":"urn:uuid:0481cd39-71fe-42ee-8fe9-96652bed57ba","resource":{"resourceType":"Patient","id":"0481cd39-71fe-42ee-8fe9-96652bed57ba","extension":[{"url":"http://worldhealthorganization.github.io/smart-ot/StructureDefinition/Landmark","valueString":"Next the spot"},{"url":"http://worldhealthorganization.github.io/smart-ot/StructureDefinition/Guardian","valueHumanName":{"family":"Mother Doe"}},{"url":"http://worldhealthorganization.github.io/smart-ot/StructureDefinition/Occupation","valueString":"Busy"},{"url":"http://worldhealthorganization.github.io/smart-ot/StructureDefinition/WorkAddress","valueAddress":{"text":"Workaddress"}}],"name":[{"family":"John Doe"}],"telecom":[{"value":"234phone"}],"birthDate":"2014-08-07","address":[{"text":"Avenue"}]}},{"fullUrl":"urn:uuid:72484c74-62fe-454c-b2e5-1a4b5e91cd3d","resource":{"resourceType":"Practitioner","id":"72484c74-62fe-454c-b2e5-1a4b5e91cd3d","name":[{"text":"reporter"}]}},{"fullUrl":"urn:uuid:0cbf0341-1232-4407-87a2-a037eb92b7c9","resource":{"resourceType":"Organization","id":"0cbf0341-1232-4407-87a2-a037eb92b7c9","name":"hospital","contact":[{"telecom":[{"value":"123-phone"}]}]}},{"fullUrl":"urn:uuid:f9da7f24-30dc-413d-a3c2-64e85ba86da8","resource":{"resourceType":"Encounter","id":"f9da7f24-30dc-413d-a3c2-64e85ba86da8"}},{"fullUrl":"urn:uuid:1ab18f93-e1ef-4e5f-8c8d-5b15930e5d4d","resource":{"resourceType":"Observation","id":"1ab18f93-e1ef-4e5f-8c8d-5b15930e5d4d","status":"registered","code":{"coding":[{"system":"https://loinc.org","code":"45701-0","display":"Fever"}]},"subject":{"reference":"Patient/0481cd39-71fe-42ee-8fe9-96652bed57ba"}}},{"fullUrl":"urn:uuid:cdd36d52-5872-4a16-96a8-0dea082bfd6f","resource":{"resourceType":"Observation","id":"cdd36d52-5872-4a16-96a8-0dea082bfd6f","status":"registered","code":{"coding":[{"system":"https://loinc.org","code":"45707-6","display":"Cough"}]},"subject":{"reference":"Patient/0481cd39-71fe-42ee-8fe9-96652bed57ba"}}},{"fullUrl":"urn:uuid:90ae4230-be37-4a9c-b8f6-52d704baaa90","resource":{"resourceType":"Observation","id":"90ae4230-be37-4a9c-b8f6-52d704baaa90","status":"registered","code":{"coding":[{"system":"https://loinc.org","code":"45708-4","display":"Conjunctivitis"}]},"subject":{"reference":"Patient/0481cd39-71fe-42ee-8fe9-96652bed57ba"}}},{"fullUrl":"urn:uuid:b1d95560-8763-4708-8eab-6efc087c0111","resource":{"resourceType":"Observation","id":"b1d95560-8763-4708-8eab-6efc087c0111","status":"registered","code":{"coding":[{"system":"https://loinc.org","code":"45709-2","display":"Coryza"}]},"subject":{"reference":"Patient/0481cd39-71fe-42ee-8fe9-96652bed57ba"}}},{"fullUrl":"urn:uuid:08314b3b-13cb-4661-bd0a-4d8aef32eed1","resource":{"resourceType":"Observation","id":"08314b3b-13cb-4661-bd0a-4d8aef32eed1","status":"registered","code":{"coding":[{"system":"https://loinc.org","code":"45710-0","display":"Koplik Spots"}]},"subject":{"reference":"Patient/0481cd39-71fe-42ee-8fe9-96652bed57ba"}}},{"fullUrl":"urn:uuid:ecca2b6a-ff8d-4ea4-9ff8-14e6d35408b3","resource":{"resourceType":"Observation","id":"ecca2b6a-ff8d-4ea4-9ff8-14e6d35408b3","status":"registered","code":{"coding":[{"system":"https://loinc.org","code":"45711-8","display":"Lymphadenopathy"}]},"subject":{"reference":"Patient/0481cd39-71fe-42ee-8fe9-96652bed57ba"}}},{"fullUrl":"urn:uuid:981dd973-6dce-457e-a85e-6d4a5c51867a","resource":{"resourceType":"Observation","id":"981dd973-6dce-457e-a85e-6d4a5c51867a","status":"registered","code":{"coding":[{"system":"https://loinc.org","code":"45712-6","display":"Joint Pain"}]},"subject":{"reference":"Patient/0481cd39-71fe-42ee-8fe9-96652bed57ba"}}},{"fullUrl":"urn:uuid:a2c4f5a5-01fa-4f72-8e21-9477ed3e3495","resource":{"resourceType":"Observation","id":"a2c4f5a5-01fa-4f72-8e21-9477ed3e3495","status":"registered","code":{"coding":[{"system":"https://loinc.org","code":"45713-4","display":"Pregnancy"}]},"subject":{"reference":"Patient/0481cd39-71fe-42ee-8fe9-96652bed57ba"}}}]}